File: FTIR.csv
Created as New Dataset,ABS black tube
cm-1,%T
4000.00,97.40
3997.00,97.40
3994.00,97.41
3991.00,97.41
3988.00,97.42
3985.00,97.41
3982.00,97.41
3979.00,97.41
3976.00,97.41
3973.00,97.42
3970.00,97.42
3967.00,97.43
3964.00,97.41
3961.00,97.42
3958.00,97.42
3955.00,97.41
3952.00,97.42
3949.00,97.42
3946.00,97.42
3943.00,97.41
3940.00,97.41
3937.00,97.41
3934.00,97.41
3931.00,97.41
3928.00,97.41
3925.00,97.41
3922.00,97.40
3919.00,97.40
3916.00,97.40
3913.00,97.40
3910.00,97.41
3907.00,97.42
3904.00,97.41
3901.00,97.41
3898.00,97.41
3895.00,97.41
3892.00,97.40
3889.00,97.41
3886.00,97.41
3883.00,97.41
3880.00,97.42
3877.00,97.41
3874.00,97.40
3871.00,97.41
3868.00,97.42
3865.00,97.42
3862.00,97.42
3859.00,97.41
3856.00,97.43
3853.00,97.41
3850.00,97.41
3847.00,97.40
3844.00,97.39
3841.00,97.39
3838.00,97.39
3835.00,97.39
3832.00,97.38
3829.00,97.38
3826.00,97.37
3823.00,97.38
3820.00,97.38
3817.00,97.37
3814.00,97.37
3811.00,97.36
3808.00,97.35
3805.00,97.36
3802.00,97.35
3799.00,97.36
3796.00,97.36
3793.00,97.36
3790.00,97.35
3787.00,97.35
3784.00,97.35
3781.00,97.35
3778.00,97.34
3775.00,97.34
3772.00,97.33
3769.00,97.33
3766.00,97.33
3763.00,97.34
3760.00,97.34
3757.00,97.33
3754.00,97.34
3751.00,97.34
3748.00,97.34
3745.00,97.32
3742.00,97.34
3739.00,97.33
3736.00,97.33
3733.00,97.33
3730.00,97.33
3727.00,97.31
3724.00,97.31
3721.00,97.31
3718.00,97.31
3715.00,97.32
3712.00,97.33
3709.00,97.32
3706.00,97.31
3703.00,97.30
3700.00,97.31
3697.00,97.31
3694.00,97.31
3691.00,97.30
3688.00,97.29
3685.00,97.28
3682.00,97.25
3679.00,97.25
3676.00,97.23
3673.00,97.22
3670.00,97.18
3667.00,97.17
3664.00,97.13
3661.00,97.12
3658.00,97.10
3655.00,97.08
3652.00,97.07
3649.00,97.06
3646.00,97.07
3643.00,97.08
3640.00,97.10
3637.00,97.11
3634.00,97.13
3631.00,97.14
3628.00,97.15
3625.00,97.16
3622.00,97.16
3619.00,97.17
3616.00,97.19
3613.00,97.20
3610.00,97.22
3607.00,97.23
3604.00,97.24
3601.00,97.25
3598.00,97.25
3595.00,97.25
3592.00,97.27
3589.00,97.28
3586.00,97.27
3583.00,97.26
3580.00,97.26
3577.00,97.26
3574.00,97.25
3571.00,97.26
3568.00,97.24
3565.00,97.22
3562.00,97.22
3559.00,97.21
3556.00,97.21
3553.00,97.19
3550.00,97.18
3547.00,97.17
3544.00,97.17
3541.00,97.17
3538.00,97.16
3535.00,97.17
3532.00,97.18
3529.00,97.17
3526.00,97.18
3523.00,97.19
3520.00,97.19
3517.00,97.19
3514.00,97.20
3511.00,97.21
3508.00,97.22
3505.00,97.22
3502.00,97.23
3499.00,97.24
3496.00,97.24
3493.00,97.24
3490.00,97.24
3487.00,97.25
3484.00,97.26
3481.00,97.26
3478.00,97.26
3475.00,97.25
3472.00,97.27
3469.00,97.27
3466.00,97.27
3463.00,97.27
3460.00,97.26
3457.00,97.26
3454.00,97.26
3451.00,97.27
3448.00,97.27
3445.00,97.26
3442.00,97.26
3439.00,97.27
3436.00,97.28
3433.00,97.28
3430.00,97.28
3427.00,97.28
3424.00,97.28
3421.00,97.29
3418.00,97.29
3415.00,97.30
3412.00,97.30
3409.00,97.30
3406.00,97.31
3403.00,97.31
3400.00,97.31
3397.00,97.31
3394.00,97.31
3391.00,97.31
3388.00,97.31
3385.00,97.31
3382.00,97.31
3379.00,97.32
3376.00,97.31
3373.00,97.32
3370.00,97.32
3367.00,97.32
3364.00,97.32
3361.00,97.32
3358.00,97.31
3355.00,97.31
3352.00,97.31
3349.00,97.31
3346.00,97.31
3343.00,97.31
3340.00,97.31
3337.00,97.32
3334.00,97.31
3331.00,97.31
3328.00,97.31
3325.00,97.31
3322.00,97.31
3319.00,97.30
3316.00,97.31
3313.00,97.31
3310.00,97.31
3307.00,97.31
3304.00,97.31
3301.00,97.31
3298.00,97.31
3295.00,97.31
3292.00,97.31
3289.00,97.31
3286.00,97.30
3283.00,97.30
3280.00,97.30
3277.00,97.30
3274.00,97.30
3271.00,97.29
3268.00,97.29
3265.00,97.29
3262.00,97.29
3259.00,97.29
3256.00,97.30
3253.00,97.30
3250.00,97.29
3247.00,97.28
3244.00,97.28
3241.00,97.29
3238.00,97.28
3235.00,97.28
3232.00,97.29
3229.00,97.28
3226.00,97.28
3223.00,97.28
3220.00,97.27
3217.00,97.26
3214.00,97.25
3211.00,97.25
3208.00,97.25
3205.00,97.25
3202.00,97.25
3199.00,97.25
3196.00,97.26
3193.00,97.26
3190.00,97.26
3187.00,97.26
3184.00,97.26
3181.00,97.26
3178.00,97.26
3175.00,97.25
3172.00,97.24
3169.00,97.23
3166.00,97.21
3163.00,97.21
3160.00,97.22
3157.00,97.24
3154.00,97.25
3151.00,97.25
3148.00,97.25
3145.00,97.26
3142.00,97.25
3139.00,97.24
3136.00,97.24
3133.00,97.23
3130.00,97.22
3127.00,97.21
3124.00,97.19
3121.00,97.16
3118.00,97.09
3115.00,96.98
3112.00,96.83
3109.00,96.66
3106.00,96.56
3103.00,96.56
3100.00,96.59
3097.00,96.53
3094.00,96.31
3091.00,95.89
3088.00,95.38
3085.00,95.09
3082.00,95.19
3079.00,95.43
3076.00,95.50
3073.00,95.36
3070.00,95.02
3067.00,94.53
3064.00,94.10
3061.00,94.01
3058.00,94.30
3055.00,94.75
3052.00,95.14
3049.00,95.35
3046.00,95.32
3043.00,95.07
3040.00,94.58
3037.00,93.80
3034.00,92.70
3031.00,91.54
3028.00,90.94
3025.00,91.36
3022.00,92.51
3019.00,93.62
3016.00,94.21
3013.00,94.35
3010.00,94.20
3007.00,93.97
3004.00,93.93
3001.00,94.26
2998.00,94.77
2995.00,95.13
2992.00,95.28
2989.00,95.29
2986.00,95.22
2983.00,95.10
2980.00,94.95
2977.00,94.76
2974.00,94.53
2971.00,94.21
2968.00,93.78
2965.00,93.25
2962.00,92.65
2959.00,92.02
2956.00,91.44
2953.00,90.86
2950.00,90.24
2947.00,89.58
2944.00,88.86
2941.00,88.11
2938.00,87.37
2935.00,86.67
2932.00,86.03
2929.00,85.48
2926.00,85.03
2923.00,84.78
2920.00,84.87
2917.00,85.41
2914.00,86.23
2911.00,87.10
2908.00,87.91
2905.00,88.65
2902.00,89.32
2899.00,89.88
2896.00,90.37
2893.00,90.81
2890.00,91.25
2887.00,91.67
2884.00,92.04
2881.00,92.34
2878.00,92.54
2875.00,92.63
2872.00,92.65
2869.00,92.61
2866.00,92.46
2863.00,92.21
2860.00,91.89
2857.00,91.56
2854.00,91.23
2851.00,91.14
2848.00,91.49
2845.00,92.08
2842.00,92.73
2839.00,93.37
2836.00,93.97
2833.00,94.51
2830.00,94.96
2827.00,95.32
2824.00,95.59
2821.00,95.79
2818.00,95.92
2815.00,96.02
2812.00,96.10
2809.00,96.17
2806.00,96.22
2803.00,96.27
2800.00,96.32
2797.00,96.35
2794.00,96.38
2791.00,96.42
2788.00,96.45
2785.00,96.47
2782.00,96.50
2779.00,96.53
2776.00,96.57
2773.00,96.59
2770.00,96.61
2767.00,96.63
2764.00,96.65
2761.00,96.66
2758.00,96.67
2755.00,96.68
2752.00,96.69
2749.00,96.69
2746.00,96.70
2743.00,96.70
2740.00,96.70
2737.00,96.70
2734.00,96.71
2731.00,96.71
2728.00,96.71
2725.00,96.72
2722.00,96.72
2719.00,96.72
2716.00,96.73
2713.00,96.73
2710.00,96.74
2707.00,96.74
2704.00,96.74
2701.00,96.74
2698.00,96.75
2695.00,96.75
2692.00,96.76
2689.00,96.75
2686.00,96.75
2683.00,96.75
2680.00,96.75
2677.00,96.75
2674.00,96.75
2671.00,96.75
2668.00,96.75
2665.00,96.74
2662.00,96.70
2659.00,96.68
2656.00,96.66
2653.00,96.65
2650.00,96.63
2647.00,96.63
2644.00,96.61
2641.00,96.59
2638.00,96.57
2635.00,96.57
2632.00,96.58
2629.00,96.60
2626.00,96.63
2623.00,96.63
2620.00,96.63
2617.00,96.63
2614.00,96.64
2611.00,96.63
2608.00,96.61
2605.00,96.61
2602.00,96.63
2599.00,96.64
2596.00,96.65
2593.00,96.66
2590.00,96.68
2587.00,96.67
2584.00,96.66
2581.00,96.67
2578.00,96.69
2575.00,96.70
2572.00,96.71
2569.00,96.71
2566.00,96.70
2563.00,96.70
2560.00,96.71
2557.00,96.71
2554.00,96.71
2551.00,96.71
2548.00,96.70
2545.00,96.70
2542.00,96.71
2539.00,96.71
2536.00,96.72
2533.00,96.72
2530.00,96.71
2527.00,96.71
2524.00,96.71
2521.00,96.71
2518.00,96.72
2515.00,96.72
2512.00,96.71
2509.00,96.72
2506.00,96.74
2503.00,96.76
2500.00,96.76
2497.00,96.76
2494.00,96.77
2491.00,96.77
2488.00,96.77
2485.00,96.78
2482.00,96.80
2479.00,96.80
2476.00,96.81
2473.00,96.81
2470.00,96.81
2467.00,96.81
2464.00,96.80
2461.00,96.80
2458.00,96.79
2455.00,96.78
2452.00,96.78
2449.00,96.78
2446.00,96.79
2443.00,96.80
2440.00,96.81
2437.00,96.81
2434.00,96.82
2431.00,96.84
2428.00,96.84
2425.00,96.84
2422.00,96.85
2419.00,96.85
2416.00,96.85
2413.00,96.85
2410.00,96.85
2407.00,96.86
2404.00,96.89
2401.00,96.89
2398.00,96.89
2395.00,96.90
2392.00,96.90
2389.00,96.91
2386.00,96.91
2383.00,96.91
2380.00,96.89
2377.00,96.90
2374.00,96.90
2371.00,96.89
2368.00,96.90
2365.00,96.89
2362.00,96.85
2359.00,96.80
2356.00,96.81
2353.00,96.82
2350.00,96.81
2347.00,96.80
2344.00,96.79
2341.00,96.70
2338.00,96.69
2335.00,96.71
2332.00,96.74
2329.00,96.73
2326.00,96.54
2323.00,96.39
2320.00,96.43
2317.00,96.47
2314.00,96.50
2311.00,96.53
2308.00,96.56
2305.00,96.58
2302.00,96.59
2299.00,96.59
2296.00,96.58
2293.00,96.54
2290.00,96.50
2287.00,96.45
2284.00,96.43
2281.00,96.47
2278.00,96.51
2275.00,96.52
2272.00,96.51
2269.00,96.50
2266.00,96.52
2263.00,96.51
2260.00,96.44
2257.00,96.36
2254.00,96.27
2251.00,96.03
2248.00,95.48
2245.00,94.55
2242.00,93.32
2239.00,92.25
2236.00,92.22
2233.00,93.41
2230.00,94.84
2227.00,95.72
2224.00,96.08
2221.00,96.23
2218.00,96.29
2215.00,96.31
2212.00,96.35
2209.00,96.38
2206.00,96.40
2203.00,96.38
2200.00,96.37
2197.00,96.36
2194.00,96.33
2191.00,96.30
2188.00,96.25
2185.00,96.22
2182.00,96.35
2179.00,96.39
2176.00,96.39
2173.00,96.45
2170.00,96.33
2167.00,96.16
2164.00,96.07
2161.00,96.08
2158.00,96.81
2155.00,97.04
2152.00,96.89
2149.00,96.82
2146.00,96.85
2143.00,96.87
2140.00,96.89
2137.00,96.91
2134.00,97.05
2131.00,97.06
2128.00,96.96
2125.00,96.88
2122.00,96.81
2119.00,96.75
2116.00,96.68
2113.00,96.63
2110.00,96.65
2107.00,96.64
2104.00,96.65
2101.00,96.65
2098.00,96.67
2095.00,96.77
2092.00,96.77
2089.00,96.71
2086.00,96.66
2083.00,96.61
2080.00,96.57
2077.00,96.59
2074.00,96.58
2071.00,96.59
2068.00,96.60
2065.00,96.58
2062.00,96.59
2059.00,96.59
2056.00,96.57
2053.00,96.48
2050.00,96.27
2047.00,96.36
2044.00,96.41
2041.00,96.38
2038.00,96.34
2035.00,96.36
2032.00,96.47
2029.00,96.48
2026.00,96.50
2023.00,96.52
2020.00,96.53
2017.00,96.54
2014.00,96.51
2011.00,96.49
2008.00,96.50
2005.00,96.65
2002.00,96.57
1999.00,96.50
1996.00,96.41
1993.00,96.32
1990.00,96.25
1987.00,96.15
1984.00,96.04
1981.00,95.84
1978.00,95.86
1975.00,96.11
1972.00,96.11
1969.00,96.05
1966.00,95.99
1963.00,95.93
1960.00,95.94
1957.00,95.92
1954.00,95.84
1951.00,95.84
1948.00,95.86
1945.00,95.93
1942.00,96.05
1939.00,96.17
1936.00,96.32
1933.00,96.45
1930.00,96.53
1927.00,96.59
1924.00,96.61
1921.00,96.61
1918.00,96.63
1915.00,96.61
1912.00,96.59
1909.00,96.55
1906.00,96.48
1903.00,96.43
1900.00,96.36
1897.00,96.30
1894.00,96.23
1891.00,96.17
1888.00,96.11
1885.00,96.06
1882.00,96.02
1879.00,96.01
1876.00,96.02
1873.00,96.08
1870.00,96.15
1867.00,96.28
1864.00,96.39
1861.00,96.50
1858.00,96.59
1855.00,96.65
1852.00,96.69
1849.00,96.71
1846.00,96.71
1843.00,96.70
1840.00,96.66
1837.00,96.61
1834.00,96.56
1831.00,96.49
1828.00,96.40
1825.00,96.33
1822.00,96.26
1819.00,96.23
1816.00,96.22
1813.00,96.15
1810.00,96.11
1807.00,96.11
1804.00,96.14
1801.00,96.22
1798.00,96.33
1795.00,96.42
1792.00,96.52
1789.00,96.59
1786.00,96.63
1783.00,96.61
1780.00,96.57
1777.00,96.54
1774.00,96.52
1771.00,96.50
1768.00,96.46
1765.00,96.40
1762.00,96.33
1759.00,96.25
1756.00,96.17
1753.00,96.08
1750.00,95.93
1747.00,95.65
1744.00,95.21
1741.00,94.43
1738.00,93.28
1735.00,92.00
1732.00,90.45
1729.00,89.65
1726.00,89.50
1723.00,90.07
1720.00,91.00
1717.00,92.46
1714.00,93.62
1711.00,94.44
1708.00,95.03
1705.00,95.46
1702.00,95.69
1699.00,95.87
1696.00,95.95
1693.00,96.01
1690.00,96.03
1687.00,96.02
1684.00,96.01
1681.00,96.03
1678.00,96.05
1675.00,96.06
1672.00,96.05
1669.00,96.08
1666.00,96.12
1663.00,96.17
1660.00,96.20
1657.00,96.21
1654.00,96.21
1651.00,96.21
1648.00,96.20
1645.00,96.14
1642.00,96.04
1639.00,96.00
1636.00,96.06
1633.00,96.14
1630.00,96.15
1627.00,96.09
1624.00,96.04
1621.00,95.99
1618.00,95.94
1615.00,95.78
1612.00,95.46
1609.00,94.45
1606.00,92.41
1603.00,90.69
1600.00,91.55
1597.00,93.53
1594.00,94.72
1591.00,95.18
1588.00,94.91
1585.00,94.09
1582.00,94.33
1579.00,95.31
1576.00,95.92
1573.00,96.16
1570.00,96.29
1567.00,96.32
1564.00,96.34
1561.00,96.33
1558.00,96.23
1555.00,96.18
1552.00,96.15
1549.00,96.11
1546.00,96.11
1543.00,96.11
1540.00,96.16
1537.00,96.25
1534.00,96.33
1531.00,96.38
1528.00,96.41
1525.00,96.41
1522.00,96.40
1519.00,96.36
1516.00,96.31
1513.00,96.26
1510.00,96.15
1507.00,95.83
1504.00,95.20
1501.00,93.67
1498.00,88.29
1495.00,79.82
1492.00,81.44
1489.00,89.04
1486.00,92.43
1483.00,93.81
1480.00,94.40
1477.00,94.47
1474.00,94.23
1471.00,93.90
1468.00,93.52
1465.00,92.80
1462.00,91.50
1459.00,88.39
1456.00,78.13
1453.00,73.53
1450.00,75.57
1447.00,79.20
1444.00,82.17
1441.00,84.62
1438.00,86.42
1435.00,88.31
1432.00,89.74
1429.00,91.28
1426.00,92.36
1423.00,93.03
1420.00,93.33
1417.00,93.60
1414.00,93.87
1411.00,94.06
1408.00,94.10
1405.00,94.00
1402.00,93.89
1399.00,93.80
1396.00,93.72
1393.00,93.66
1390.00,93.61
1387.00,93.46
1384.00,93.12
1381.00,92.64
1378.00,92.13
1375.00,91.76
1372.00,91.51
1369.00,91.38
1366.00,91.30
1363.00,91.27
1360.00,91.26
1357.00,91.26
1354.00,91.29
1351.00,91.32
1348.00,91.38
1345.00,91.48
1342.00,91.62
1339.00,91.77
1336.00,91.81
1333.00,91.82
1330.00,91.85
1327.00,91.91
1324.00,91.95
1321.00,91.96
1318.00,91.92
1315.00,91.90
1312.00,91.91
1309.00,91.98
1306.00,92.10
1303.00,92.30
1300.00,92.51
1297.00,92.67
1294.00,92.81
1291.00,92.93
1288.00,93.02
1285.00,93.09
1282.00,93.11
1279.00,93.09
1276.00,93.05
1273.00,93.01
1270.00,92.97
1267.00,92.91
1264.00,92.84
1261.00,92.86
1258.00,93.02
1255.00,93.25
1252.00,93.48
1249.00,93.67
1246.00,93.78
1243.00,93.81
1240.00,93.80
1237.00,93.82
1234.00,93.87
1231.00,93.93
1228.00,93.94
1225.00,93.87
1222.00,93.73
1219.00,93.51
1216.00,93.25
1213.00,93.00
1210.00,92.79
1207.00,92.62
1204.00,92.46
1201.00,92.33
1198.00,92.29
1195.00,92.26
1192.00,92.14
1189.00,91.77
1186.00,91.18
1183.00,90.68
1180.00,90.63
1177.00,90.77
1174.00,90.72
1171.00,90.56
1168.00,90.40
1165.00,90.25
1162.00,90.00
1159.00,89.58
1156.00,89.39
1153.00,90.09
1150.00,91.39
1147.00,92.54
1144.00,93.44
1141.00,94.09
1138.00,94.51
1135.00,94.76
1132.00,94.86
1129.00,94.86
1126.00,94.75
1123.00,94.54
1120.00,94.24
1117.00,93.99
1114.00,93.89
1111.00,93.84
1108.00,93.79
1105.00,93.71
1102.00,93.64
1099.00,93.54
1096.00,93.43
1093.00,93.32
1090.00,93.12
1087.00,92.82
1084.00,92.39
1081.00,91.80
1078.00,91.10
1075.00,90.33
1072.00,89.70
1069.00,89.52
1066.00,89.82
1063.00,90.36
1060.00,90.91
1057.00,91.41
1054.00,91.81
1051.00,92.09
1048.00,92.26
1045.00,92.35
1042.00,92.35
1039.00,92.02
1036.00,90.91
1033.00,88.79
1030.00,86.96
1027.00,87.16
1024.00,88.49
1021.00,89.48
1018.00,90.09
1015.00,90.48
1012.00,90.73
1009.00,90.84
1006.00,90.73
1003.00,90.72
1000.00,91.19
997.00,91.25
994.00,91.05
991.00,91.01
988.00,91.04
985.00,90.95
982.00,90.67
979.00,90.06
976.00,88.86
973.00,86.95
970.00,84.80
967.00,83.49
964.00,84.02
961.00,86.22
958.00,88.68
955.00,90.38
952.00,91.38
949.00,91.97
946.00,92.32
943.00,92.56
940.00,92.77
937.00,92.98
934.00,93.18
931.00,93.31
928.00,93.28
925.00,93.03
922.00,92.41
919.00,91.32
916.00,89.87
913.00,88.56
910.00,88.17
907.00,89.06
904.00,90.63
901.00,92.03
898.00,92.91
895.00,93.40
892.00,93.65
889.00,93.80
886.00,93.85
883.00,93.80
880.00,93.70
877.00,93.63
874.00,93.78
871.00,94.03
868.00,94.19
865.00,94.24
862.00,94.25
859.00,94.17
856.00,93.93
853.00,93.55
850.00,93.12
847.00,92.79
844.00,92.66
841.00,92.89
838.00,93.37
835.00,93.92
832.00,94.26
829.00,94.41
826.00,94.43
823.00,94.38
820.00,94.30
817.00,94.25
814.00,94.18
811.00,94.07
808.00,94.00
805.00,93.93
802.00,93.83
799.00,93.72
796.00,93.52
793.00,93.27
790.00,92.89
787.00,92.19
784.00,91.16
781.00,89.64
778.00,87.50
775.00,84.71
772.00,81.27
769.00,77.04
766.00,72.13
763.00,67.53
760.00,64.74
757.00,64.96
754.00,67.87
751.00,71.85
748.00,75.54
745.00,78.57
742.00,80.77
739.00,82.57
736.00,84.74
733.00,87.00
730.00,88.81
727.00,90.05
724.00,90.82
721.00,91.08
718.00,90.58
715.00,88.11
712.00,81.64
709.00,70.86
706.00,57.92
703.00,44.81
700.00,33.91
697.00,32.35
694.00,46.10
691.00,62.18
688.00,71.09
685.00,75.63
682.00,78.23
679.00,79.94
676.00,81.22
673.00,82.19
670.00,82.84
667.00,83.89
664.00,84.71
661.00,85.43
658.00,86.11
655.00,86.61
652.00,87.03
650.00,87.18